Folder: notebooks_parfa30/python/lsst/sitcom/parfa30/exposure_time_calculator/baseline_tput_curves

File: A_Broadband_AR-Coating.csv
A Broadband AR Coating Reflectance,,,
Wavelength (nm),% Reflectance,,
850,6.46861,,
840,6.03914,,
830,5.56363,,
820,5.15242,,
810,4.7112,,
800,4.28674,,
790,3.8347,,
780,3.43968,,
770,3.02273,,
760,2.65122,,
750,2.27204,,
740,1.93842,,
730,1.61127,,
720,1.3328,,
710,1.06406,,
700,0.84208,,
690,0.63775,,
680,0.47568,,
670,0.36003,,
660,0.25621,,
650,0.18651,,
640,0.14525,,
630,0.13204,,
620,0.15724,,
610,0.18982,,
600,0.23322,,
590,0.28853,,
580,0.34173,,
570,0.40241,,
560,0.4474,,
550,0.47261,,
540,0.48651,,
530,0.47741,,
520,0.4501,,
510,0.40534,,
500,0.35254,,
490,0.28188,,
480,0.23824,,
470,0.19551,,
460,0.19608,,
450,0.2103,,
440,0.30228,,
430,0.38165,,
420,0.46625,,
410,0.54846,,
400,0.52796,,
390,0.39118,,
380,0.18967,,
370,0.02461,,
360,0.39705,,
350,1.8764,,
340,5.4588,,
330,11.19674,,
320,18.63226,,
310,25.82638,,
300,38.43203,,
290,40.50428,,
280,32.37651,,
270,13.67942,,
260,0.54687,,
250,19.08522,,

File: AB_Broadband_AR-Coating.csv
AB Broadband AR Coating Reflectance ,,,
Wavelength (nm),Reflectance (%),,
300,10.65,,
304,2.37,,
308,2.53,,
312,9.54,,
316,18.76,,
320,27.58,,
324,34.21,,
328,39.00,,
332,42.07,,
336,43.65,,
340,44.01,,
344,43.39,,
348,41.86,,
352,39.58,,
356,36.65,,
360,33.10,,
364,29.23,,
368,25.11,,
372,20.99,,
376,17.06,,
380,12.94,,
384,9.69,,
388,6.95,,
392,4.74,,
396,3.13,,
400,1.94,,
404,1.18,,
408,0.70,,
412,0.45,,
416,0.35,,
420,0.32,,
424,0.35,,
428,0.39,,
432,0.42,,
436,0.45,,
440,0.47,,
444,0.47,,
448,0.46,,
452,0.44,,
456,0.42,,
460,0.40,,
464,0.39,,
468,0.38,,
472,0.38,,
476,0.38,,
480,0.39,,
484,0.41,,
488,0.44,,
492,0.47,,
496,0.50,,
500,0.53,,
504,0.56,,
508,0.59,,
512,0.62,,
516,0.65,,
520,0.67,,
524,0.69,,
528,0.70,,
532,0.71,,
536,0.72,,
540,0.73,,
544,0.72,,
548,0.72,,
552,0.72,,
556,0.71,,
560,0.70,,
564,0.69,,
568,0.67,,
572,0.66,,
576,0.64,,
580,0.63,,
584,0.61,,
588,0.59,,
592,0.57,,
596,0.56,,
600,0.54,,
604,0.52,,
608,0.50,,
612,0.49,,
616,0.47,,
620,0.46,,
624,0.45,,
628,0.43,,
632,0.42,,
636,0.41,,
640,0.41,,
644,0.40,,
648,0.40,,
652,0.39,,
656,0.39,,
660,0.39,,
664,0.40,,
668,0.40,,
672,0.41,,
676,0.41,,
680,0.42,,
684,0.44,,
688,0.45,,
692,0.46,,
696,0.48,,
700,0.50,,
704,0.51,,
708,0.53,,
712,0.55,,
716,0.57,,
720,0.59,,
724,0.61,,
728,0.64,,
732,0.66,,
736,0.68,,
740,0.70,,
744,0.72,,
748,0.74,,
752,0.76,,
756,0.78,,
760,0.79,,
764,0.81,,
768,0.82,,
772,0.83,,
776,0.84,,
780,0.85,,
784,0.86,,
788,0.87,,
792,0.87,,
796,0.88,,
800,0.88,,
804,0.87,,
808,0.87,,
812,0.87,,
816,0.86,,
820,0.85,,
824,0.85,,
828,0.83,,
832,0.82,,
836,0.81,,
840,0.80,,
844,0.78,,
848,0.76,,
852,0.74,,
856,0.73,,
860,0.70,,
864,0.68,,
868,0.66,,
872,0.64,,
876,0.62,,
880,0.60,,
884,0.58,,
888,0.56,,
892,0.52,,
896,0.48,,
900,0.49,,
904,0.46,,
908,0.46,,
912,0.42,,
916,0.42,,
920,0.44,,
924,0.40,,
928,0.38,,
932,0.36,,
936,0.35,,
940,0.37,,
944,0.36,,
948,0.35,,
952,0.35,,
956,0.36,,
960,0.36,,
964,0.36,,
968,0.37,,
972,0.39,,
976,0.40,,
980,0.42,,
984,0.44,,
988,0.46,,
992,0.48,,
996,0.51,,
1000,0.56,,
1004,0.61,,
1008,0.63,,
1012,0.67,,
1016,0.72,,
1020,0.76,,
1024,0.81,,
1028,0.87,,
1032,0.92,,
1036,0.98,,
1040,1.04,,
1044,1.10,,
1048,1.17,,
1052,1.25,,
1056,1.32,,
1060,1.39,,
1064,1.47,,
1068,1.56,,
1072,1.65,,
1076,1.73,,
1080,1.82,,
1084,1.92,,
1088,2.01,,
1092,2.11,,
1096,2.21,,
1100,2.31,,
1104,2.41,,
1108,2.51,,
1112,2.62,,
1116,2.73,,
1120,2.84,,
1124,2.97,,
1128,3.08,,
1132,3.20,,
1136,3.31,,
1140,3.43,,
1144,3.55,,
1148,3.67,,
1152,3.80,,
1156,3.92,,
1160,4.05,,
1164,4.18,,
1168,4.31,,
1172,4.44,,
1176,4.57,,
1180,4.69,,
1184,4.82,,
1188,4.96,,
1192,5.09,,
1196,5.23,,
1200,5.37,,